Folder: XRD-Data

File: Al.csv
2Theta,Intensity (counts)
30,62
30.35,83
30.7,61
31.05,75
31.4,62
31.75,83
32.1,82
32.45,109
32.8,116
33.15,101
33.5,95
33.85,90
34.2,91
34.55,59
34.9,67
35.25,57
35.6,52
35.95,84
36.3,68
36.65,77
37,60
37.35,79
37.7,75
38.05,84
38.4,194
38.75,574
39.1,115
39.45,105
39.8,133
40.15,110
40.5,98
40.85,76
41.2,91
41.55,46
41.9,53
42.25,57
42.6,71
42.95,65
43.3,55
43.65,45
44,62
44.35,49
44.7,158
45.05,281
45.4,71
45.75,71
46.1,89
46.45,64
46.8,81
47.15,76
47.5,67
47.85,50
48.2,51
48.55,51
48.9,46
49.25,53
49.6,43
49.95,61
50.3,48
50.65,64
51,54
51.35,69
51.7,57
52.05,47
52.4,47
52.75,55
53.1,58
53.45,57
53.8,63
54.15,40
54.5,43
54.85,60
55.2,35
55.55,37
55.9,39
56.25,49
56.6,47
56.95,39
57.3,36
57.65,58
58,47
58.35,54
58.7,50
59.05,49
59.4,44
59.75,41
60.1,54
60.45,43
60.8,52
61.15,54
61.5,49
61.85,50
62.2,50
62.55,41
62.9,48
63.25,59
63.6,44
63.95,47
64.3,54
64.65,43
65,58
65.35,226
65.7,58
66.05,39
66.4,34
66.75,46
67.1,45
67.45,55
67.8,52
68.15,54
68.5,53
68.85,54
69.2,32
69.55,49
69.9,38
70.25,41
70.6,40
70.95,41
71.3,37
71.65,41
72,35
72.35,37
72.7,29
73.05,36
73.4,32
73.75,39
74.1,34
74.45,42
74.8,39
75.15,34
75.5,38
75.85,30
76.2,37
76.55,29
76.9,35
77.25,29
77.6,42
77.95,36
78.3,258
78.65,151
79,45
79.35,35
79.7,47
80.05,42
80.4,50
80.75,44
81.1,52
81.45,34
81.8,53
82.15,46
82.5,89
82.85,92
83.2,49
83.55,46
83.9,41
84.25,42
84.6,34
84.95,46
85.3,49
85.65,48
86,40
86.35,31
86.7,36
87.05,40
87.4,26
87.75,45
88.1,32
88.45,36
88.8,39
89.15,26
89.5,33
89.85,48
90.2,27
90.55,42
90.9,43
91.25,32
91.6,42
91.95,43
92.3,40
92.65,46
93,39
93.35,38
93.7,49
94.05,44
94.4,26
94.75,31
95.1,36
95.45,28
95.8,41
96.15,47
96.5,31
96.85,33
97.2,39
97.55,39
97.9,41
98.25,35
98.6,45
98.95,41
99.3,50
99.65,65
100,38
100.35,36
100.7,39
101.05,56
101.4,54
101.75,38
102.1,37
102.45,50
102.8,42
103.15,39
103.5,43
103.85,38
104.2,47
104.55,38
104.9,48
105.25,38
105.6,45
105.95,38
106.3,42
106.65,48
107,41
107.35,36
107.7,48
108.05,45
108.4,41
108.75,55
109.1,42
109.45,41
109.8,45
110.15,39
110.5,43
110.85,52
111.2,37
111.55,64
111.9,81
112.25,76
112.6,89
112.95,52
113.3,55
113.65,43
114,45
114.35,44
114.7,37
115.05,49
115.4,48
115.75,47
116.1,49
116.45,114
116.8,85
117.15,75
117.5,55
117.85,62
118.2,48
118.55,49
118.9,47
119.25,57
119.6,50
119.95,48
120,56

File: CsCl.csv
2Theta,Intensity (counts)
30,109
30.35,192
30.7,163
31.05,112
31.4,101
31.75,105
32.1,93
32.45,89
32.8,90
33.15,86
33.5,90
33.85,98
34.2,83
34.55,83
34.9,77
35.25,80
35.6,87
35.95,85
36.3,88
36.65,69
37,66
37.35,69
37.7,66
38.05,51
38.4,61
38.75,62
39.1,70
39.45,49
39.8,53
40.15,49
40.5,66
40.85,49
41.2,46
41.55,56
41.9,64
42.25,54
42.6,53
42.95,51
43.3,44
43.65,62
44,47
44.35,42
44.7,35
45.05,40
45.4,57
45.75,39
46.1,42
46.45,46
46.8,40
47.15,45
47.5,35
47.85,45
48.2,31
48.55,34
48.9,46
49.25,96
49.6,28
49.95,35
50.3,37
50.65,41
51,38
51.35,47
51.7,26
52.05,38
52.4,40
52.75,34
53.1,28
53.45,32
53.8,37
54.15,70
54.5,56
54.85,35
55.2,29
55.55,32
55.9,39
56.25,36
56.6,39
56.95,40
57.3,31
57.65,38
58,23
58.35,20
58.7,26
59.05,30
59.4,33
59.75,25
60.1,26
60.45,26
60.8,29
61.15,28
61.5,28
61.85,30
62.2,24
62.55,24
62.9,34
63.25,28
63.6,66
63.95,28
64.3,32
64.65,35
65,30
65.35,23
65.7,27
66.05,29
66.4,27
66.75,26
67.1,27
67.45,23
67.8,31
68.15,36
68.5,26
68.85,26
69.2,14
69.55,30
69.9,38
70.25,27
70.6,33
70.95,34
71.3,24
71.65,28
72,28
72.35,57
72.7,38
73.05,28
73.4,32
73.75,15
74.1,19
74.45,25
74.8,26
75.15,27
75.5,17
75.85,21
76.2,26
76.55,31
76.9,17
77.25,26
77.6,15
77.95,33
78.3,25
78.65,20
79,28
79.35,24
79.7,23
80.05,23
80.4,22
80.75,28
81.1,31
81.45,20
81.8,28
82.15,31
82.5,19
82.85,19
83.2,23
83.55,29
83.9,21
84.25,23
84.6,27
84.95,23
85.3,23
85.65,26
86,23
86.35,23
86.7,25
87.05,18
87.4,17
87.75,23
88.1,18
88.45,73
88.8,58
89.15,28
89.5,29
89.85,27
90.2,18
90.55,27
90.9,22
91.25,24
91.6,27
91.95,39
92.3,23
92.65,24
93,22
93.35,28
93.7,34
94.05,30
94.4,32
94.75,20
95.1,18
95.45,24
95.8,26
96.15,27
96.5,30
96.85,39
97.2,23
97.55,27
97.9,24
98.25,27
98.6,28
98.95,26
99.3,23
99.65,21
100,13
100.35,24
100.7,43
101.05,33
101.4,21
101.75,30
102.1,22
102.45,31
102.8,25
103.15,17
103.5,31
103.85,25
104.2,29
104.55,24
104.9,30
105.25,35
105.6,29
105.95,16
106.3,33
106.65,20
107,25
107.35,24
107.7,28
108.05,37
108.4,35
108.75,18
109.1,26
109.45,29
109.8,23
110.15,21
110.5,23
110.85,28
111.2,24
111.55,33
111.9,25
112.25,24
112.6,24
112.95,31
113.3,38
113.65,38
114,25
114.35,23
114.7,27
115.05,26
115.4,32
115.75,35
116.1,35
116.45,25
116.8,22
117.15,25
117.5,26
117.85,31
118.2,27
118.55,26
118.9,23
119.25,25
119.6,27
119.95,26
120,29

File: KCl.csv
2Theta,Intensity (counts)
25,200
25.4,239
25.8,241
26.2,192
26.6,182
27,136
27.4,141
27.8,132
28.2,503
28.6,240
29,202
29.4,224
29.8,181
30.2,120
30.6,115
31,93
31.4,71
31.8,74
32.2,73
32.6,70
33,70
33.4,81
33.8,93
34.2,66
34.6,55
35,70
35.4,70
35.8,69
36.2,58
36.6,63
37,60
37.4,53
37.8,57
38.2,56
38.6,41
39,49
39.4,55
39.8,67
40.2,77
40.6,236
41,57
41.4,64
41.8,73
42.2,47
42.6,41
43,60
43.4,51
43.8,54
44.2,47
44.6,52
45,44
45.4,43
45.8,52
46.2,47
46.6,34
47,46
47.4,51
47.8,45
48.2,43
48.6,34
49,43
49.4,38
49.8,49
50.2,74
50.6,45
51,35
51.4,47
51.8,31
52.2,31
52.6,43
53,33
53.4,31
53.8,40
54.2,34
54.6,30
55,31
55.4,22
55.8,35
56.2,27
56.6,41
57,20
57.4,35
57.8,32
58.2,27
58.6,190
59,43
59.4,31
59.8,29
60.2,38
60.6,33
61,33
61.4,35
61.8,33
62.2,25
62.6,26
63,41
63.4,31
63.8,38
64.2,31
64.6,29
65,18
65.4,26
65.8,33
66.2,73
66.6,88
67,32
67.4,32
67.8,19
68.2,32
68.6,28
69,31
69.4,40
69.8,31
70.2,26
70.6,22
71,27
71.4,29
71.8,20
72.2,35
72.6,25
73,20
73.4,25
73.8,70
74.2,34
74.6,21
75,25
75.4,27
75.8,28
76.2,25
76.6,21
77,24
77.4,34
77.8,20
78.2,19
78.6,22
79,26
79.4,26
79.8,30
80.2,15
80.6,25
81,21
81.4,20
81.8,32
82.2,25
82.6,22
83,26
83.4,32
83.8,20
84.2,22
84.6,15
85,32
85.4,28
85.8,23
86.2,24
86.6,21
87,36
87.4,25
87.8,25
88.2,21
88.6,22
89,21
89.4,19
89.8,22
90.2,18
90.6,29
91,23
91.4,27
91.8,18
92.2,23
92.6,24
93,30
93.4,25
93.8,25
94.2,26
94.6,43
95,28
95.4,31
95.8,26
96.2,30
96.6,39
97,28
97.4,28
97.8,22
98.2,24
98.6,37
99,31
99.4,22
99.8,19
100.2,30
100.6,28
101,29
101.4,56
101.8,25
102.2,28
102.6,38
103,30
103.4,32
103.8,25
104.2,21
104.6,32
105,30
105.4,32
105.8,19
106.2,28
106.6,29
107,21
107.4,22
107.8,30
108.2,37
108.6,35
109,29
109.4,27
109.8,26
110.2,32
110.6,31
111,27
111.4,27
111.8,33
112.2,34
112.6,25
113,30
113.4,31
113.8,29
114.2,27
114.6,21
115,34
115.4,25
115.8,33
116.2,30
116.6,19
117,37
117.4,16
117.8,31
118.2,38
118.6,27
119,39
119.4,27
119.8,31
120.2,24
120.6,40
121,32
121.4,23
121.8,33
122.2,28
122.6,35
123,38
123.4,39
123.8,44
124.2,40
124.6,36
125,40
125.4,42
125.8,33
126.2,34
126.6,38
127,40
127.4,39
127.8,41
128.2,36
128.6,31
129,42
129.4,28
129.8,38
130,32

File: LiF.csv
2Theta,Intensity (counts)
30,170
30.35,152
30.7,162
31.05,154
31.4,154
31.75,165
32.1,185
32.45,170
32.8,163
33.15,118
33.5,105
33.85,127
34.2,148
34.55,138
34.9,108
35.25,111
35.6,117
35.95,110
36.3,116
36.65,115
37,115
37.35,116
37.7,139
38.05,429
38.4,1347
38.75,239
39.1,168
39.45,172
39.8,182
40.15,161
40.5,121
40.85,123
41.2,99
41.55,81
41.9,91
42.25,82
42.6,65
42.95,93
43.3,96
43.65,83
44,106
44.35,540
44.7,1649
45.05,298
45.4,136
45.75,157
46.1,166
46.45,174
46.8,122
47.15,111
47.5,109
47.85,102
48.2,81
48.55,73
48.9,83
49.25,80
49.6,72
49.95,78
50.3,76
50.65,74
51,77
51.35,74
51.7,80
52.05,91
52.4,83
52.75,78
53.1,57
53.45,69
53.8,64
54.15,67
54.5,72
54.85,81
55.2,62
55.55,69
55.9,61
56.25,64
56.6,75
56.95,68
57.3,62
57.65,73
58,76
58.35,68
58.7,63
59.05,76
59.4,79
59.75,77
60.1,68
60.45,61
60.8,73
61.15,61
61.5,52
61.85,74
62.2,82
62.55,73
62.9,74
63.25,78
63.6,82
63.95,97
64.3,91
64.65,127
65,523
65.35,481
65.7,103
66.05,84
66.4,87
66.75,83
67.1,95
67.45,104
67.8,98
68.15,86
68.5,89
68.85,92
69.2,78
69.55,76
69.9,73
70.25,72
70.6,75
70.95,74
71.3,72
71.65,73
72,68
72.35,90
72.7,72
73.05,84
73.4,74
73.75,62
74.1,57
74.45,80
74.8,60
75.15,81
75.5,68
75.85,71
76.2,74
76.55,75
76.9,71
77.25,64
77.6,68
77.95,90
78.3,200
78.65,177
79,100
79.35,73
79.7,68
80.05,95
80.4,82
80.75,80
81.1,47
81.45,82
81.8,86
82.15,86
82.5,182
82.85,187
83.2,95
83.55,79
83.9,93
84.25,66
84.6,88
84.95,86
85.3,78
85.65,81
86,81
86.35,88
86.7,86
87.05,79
87.4,79
87.75,71
88.1,76
88.45,69
88.8,72
89.15,93
89.5,79
89.85,72
90.2,85
90.55,66
90.9,87
91.25,76
91.6,76
91.95,85
92.3,78
92.65,79
93,87
93.35,80
93.7,78
94.05,68
94.4,85
94.75,76
95.1,77
95.45,71
95.8,97
96.15,82
96.5,89
96.85,87
97.2,78
97.55,72
97.9,75
98.25,82
98.6,99
98.95,79
99.3,122
99.65,140
100,106
100.35,94
100.7,107
101.05,86
101.4,66
101.75,82
102.1,86
102.45,81
102.8,89
103.15,83
103.5,98
103.85,83
104.2,74
104.55,82
104.9,88
105.25,106
105.6,103
105.95,103
106.3,95
106.65,112
107,113
107.35,97
107.7,87
108.05,86
108.4,99
108.75,122
109.1,101
109.45,107
109.8,108
110.15,95
110.5,104
110.85,105
111.2,99
111.55,102
111.9,125
112.25,100
112.6,143
112.95,109
113.3,124
113.65,126
114,109
114.35,104
114.7,127
115.05,103
115.4,113
115.75,119
116.1,109
116.45,120
116.8,135
117.15,236
117.5,272
117.85,255
118.2,111
118.55,117
118.9,113
119.25,101
119.6,133
119.95,130
120,128

File: W.csv
2Theta,Intensity (counts)
25,124
25.4,121
25.8,112
26.2,116
26.6,117
27,107
27.4,113
27.8,108
28.2,102
28.6,101
29,88
29.4,71
29.8,76
30.2,65
30.6,60
31,54
31.4,66
31.8,59
32.2,63
32.6,57
33,51
33.4,53
33.8,52
34.2,46
34.6,60
35,49
35.4,43
35.8,47
36.2,49
36.6,62
37,48
37.4,37
37.8,43
38.2,48
38.6,46
39,54
39.4,71
39.8,106
40.2,213
40.6,71
41,56
41.4,56
41.8,56
42.2,53
42.6,50
43,45
43.4,41
43.8,40
44.2,42
44.6,40
45,29
45.4,44
45.8,30
46.2,42
46.6,36
47,45
47.4,31
47.8,35
48.2,43
48.6,46
49,39
49.4,40
49.8,32
50.2,26
50.6,27
51,33
51.4,34
51.8,35
52.2,33
52.6,29
53,38
53.4,44
53.8,26
54.2,40
54.6,36
55,37
55.4,28
55.8,41
56.2,28
56.6,28
57,25
57.4,35
57.8,52
58.2,78
58.6,38
59,39
59.4,37
59.8,38
60.2,25
60.6,35
61,34
61.4,29
61.8,27
62.2,24
62.6,18
63,35
63.4,23
63.8,33
64.2,28
64.6,26
65,21
65.4,23
65.8,25
66.2,22
66.6,20
67,22
67.4,31
67.8,21
68.2,26
68.6,32
69,26
69.4,31
69.8,32
70.2,25
70.6,23
71,28
71.4,31
71.8,22
72.2,29
72.6,56
73,145
73.4,98
73.8,42
74.2,28
74.6,26
75,32
75.4,24
75.8,36
76.2,36
76.6,36
77,30
77.4,36
77.8,39
78.2,25
78.6,22
79,28
79.4,25
79.8,19
80.2,19
80.6,23
81,24
81.4,27
81.8,18
82.2,18
82.6,19
83,30
83.4,29
83.8,23
84.2,20
84.6,22
85,30
85.4,27
85.8,21
86.2,19
86.6,54
87,132
87.4,31
87.8,29
88.2,31
88.6,27
89,29
89.4,31
89.8,24
90.2,34
90.6,34
91,25
91.4,30
91.8,29
92.2,26
92.6,33
93,22
93.4,34
93.8,25
94.2,29
94.6,24
95,25
95.4,24
95.8,26
96.2,23
96.6,16
97,38
97.4,20
97.8,24
98.2,30
98.6,28
99,33
99.4,34
99.8,28
100.2,52
100.6,117
101,80
101.4,24
101.8,31
102.2,25
102.6,29
103,36
103.4,27
103.8,32
104.2,33
104.6,36
105,28
105.4,32
105.8,23
106.2,27
106.6,30
107,22
107.4,28
107.8,33
108.2,39
108.6,26
109,21
109.4,25
109.8,28
110.2,26
110.6,31
111,23
111.4,29
111.8,28
112.2,26
112.6,28
113,28
113.4,27
113.8,27
114.2,28
114.6,45
115,53
115.4,46
115.8,33
116.2,34
116.6,30
117,20
117.4,33
117.8,40
118.2,29
118.6,36
119,30
119.4,34
119.8,35
120.2,29
120.6,27
121,34
121.4,30
121.8,36
122.2,34
122.6,43
123,36
123.4,40
123.8,27
124.2,34
124.6,23
125,29
125.4,30
125.8,29
126.2,30
126.6,38
127,31
127.4,28
127.8,39
128.2,26
128.6,43
129,34
129.4,49
129.8,45
130.2,45
130.6,61
131,221
131.4,114
131.8,196
132.2,51
132.6,27
133,40
133.4,37
133.8,40
134.2,48
134.6,36
135,45